trial_type,us,iti_duration,cs_duration,cs_img,trial,half,task,cs_shape,rating_img,rating_type,rating_text,top_instructions_text,left_anchor_text,center_anchor_text,right_anchor_text,extinction_trials.thisRepN,extinction_trials.thisTrialN,extinction_trials.thisN,extinction_trials.thisIndex,post_form_c_trials.thisRepN,post_form_c_trials.thisTrialN,post_form_c_trials.thisN,post_form_c_trials.thisIndex,post_ratings_trials.thisRepN,post_ratings_trials.thisTrialN,post_ratings_trials.thisN,post_ratings_trials.thisIndex,fixation_image_pre.started,iti_start,fixation_image_hab.started,iti_end,iti_dur,cs_onset,cs_offset,cs_dur,expectancy_response.keys,fixation_image_post.started,form_3a.started,form_3a_next_button.started,form_3a.index,form_3a.itemText,form_3a.type,form_3a.font,form_3a.markerColor,form_3a.response,form_3a.rt,form_3a_next_button.numClicks,form_3a_next_button.timesOn,form_3a_next_button.timesOff,form_3b.started,form_3b_next_button.started,form_3b.index,form_3b.itemText,form_3b.type,form_3b.font,form_3b.markerColor,form_3b.response,form_3b.rt,form_3b_next_button.numClicks,form_3b_next_button.timesOn,form_3b_next_button.timesOff,form_3c.started,form_3c_next_button.started,form_3c.index,form_3c.itemText,form_3c.type,form_3c.font,form_3c.markerColor,form_3c.response,form_3c.rt,form_3c_next_button.numClicks,form_3c_next_button.timesOn,form_3c_next_button.timesOff,form_3d.started,form_3d_next_button.started,form_3d.index,form_3d.itemText,form_3d.type,form_3d.font,form_3d.markerColor,form_3d.response,form_3d.rt,form_3d_next_button.numClicks,form_3d_next_button.timesOn,form_3d_next_button.timesOff,fixation_image_ratings.started,fixation_image_ratings.stopped,center.started,left.started,right.started,top_instructions.started,rating_slider.started,rating_next_button.started,rating_slider.response,rating_slider.rt,rating_next_button.numClicks,rating_next_button.timesOn,rating_next_button.timesOff,,date,expName,psychopyVersion,frameRate,
CS-,0,10,8,stimuli/aligned.png,1,1,extinction,,,,,,,,,0,0,0,0,,,,,,,,,9.380586099985521,5.017738800030202,14.390084599959664,15.011749299999792,9.994010400027037,15.01175870001316,23.010290700010955,7.9985287000308745,None,,,,,,,,,,,,,,,,,,,,,,,,,,,,,,,,,,,,,,,,,,,,,,,,,,,,,,,,,,,,,,,,2024-03-14_12h26.48.928,extinction,2022.2.4,59.88594123231274,
CS+,0,12.5,8,stimuli/rotated.png,2,1,extinction,,,,,,,,,0,1,1,1,,,,,,,,,,23.010686499997973,32.39087890001247,35.50057900004322,12.489893899997696,35.50058910000371,43.5158219000441,8.015219799999613,None,,,,,,,,,,,,,,,,,,,,,,,,,,,,,,,,,,,,,,,,,,,,,,,,,,,,,,,,,,,,,,,,2024-03-14_12h26.48.928,extinction,2022.2.4,59.88594123231274,
CS-,0,10.5,8,stimuli/aligned.png,3,1,extinction,,,,,,,,,0,2,2,2,,,,,,,,,,43.516159300052095,52.89639670000179,54.00230960000772,10.486151000019163,54.00231860001804,62.017542500048876,8.015209400036838,None,,,,,,,,,,,,,,,,,,,,,,,,,,,,,,,,,,,,,,,,,,,,,,,,,,,,,,,,,,,,,,,,2024-03-14_12h26.48.928,extinction,2022.2.4,59.88594123231274,
CS+,0,15,8,stimuli/rotated.png,4,1,extinction,,,,,,,,,0,3,3,3,,,,,,,,,,62.01784939999925,71.39812490000622,77.01259060000302,14.994742500013672,77.01260060002096,85.01114410004811,7.9985263000126,None,,,,,,,,,,,,,,,,,,,,,,,,,,,,,,,,,,,,,,,,,,,,,,,,,,,,,,,,,,,,,,,,2024-03-14_12h26.48.928,extinction,2022.2.4,59.88594123231274,
CS-,0,13,8,stimuli/aligned.png,5,1,extinction,,,,,,,,,0,4,4,4,,,,,,,,,,85.01145079999696,94.39170639996883,98.0023653000244,12.990916199982166,98.00237560004462,106.01760130003095,8.015217799984384,None,,,,,,,,,,,,,,,,,,,,,,,,,,,,,,,,,,,,,,,,,,,,,,,,,,,,,,,,,,,,,,,,2024-03-14_12h26.48.928,extinction,2022.2.4,59.88594123231274,
CS+,0,11,8,stimuli/rotated.png,6,1,extinction,,,,,,,,,0,5,5,5,,,,,,,,,,106.01794099999825,115.39819009997882,117.00504460005322,10.987104700005148,117.00505350000458,125.00360730005195,7.998539599997457,None,,,,,,,,,,,,,,,,,,,,,,,,,,,,,,,,,,,,,,,,,,,,,,,,,,,,,,,,,,,,,,,,2024-03-14_12h26.48.928,extinction,2022.2.4,59.88594123231274,
CS-,0,11.5,8,stimuli/aligned.png,7,1,extinction,,,,,,,,,0,6,6,6,,,,,,,,,,125.00392180000199,134.38416339998366,136.508675100049,11.504754699999467,136.50868450000416,144.5239111999981,8.015211299993098,None,,,,,,,,,,,,,,,,,,,,,,,,,,,,,,,,,,,,,,,,,,,,,,,,,,,,,,,,,,,,,,,,2024-03-14_12h26.48.928,extinction,2022.2.4,59.88594123231274,
CS-,0,14,8,stimuli/aligned.png,8,1,extinction,,,,,,,,,0,7,7,7,,,,,,,,,,144.5242411000072,153.90449370001443,158.5003524000058,13.976112100004684,158.50036210002145,166.5155958000105,8.015232300036587,None,,,,,,,,,,,,,,,,,,,,,,,,,,,,,,,,,,,,,,,,,,,,,,,,,,,,,,,,,,,,,,,,2024-03-14_12h26.48.928,extinction,2022.2.4,59.88594123231274,
CS+,0,13.5,8,stimuli/rotated.png,9,1,extinction,,,,,,,,,0,8,8,8,,,,,,,,,,166.51592430000892,175.8961738999933,180.00778060004814,13.491857599990908,180.0077900000033,188.00632530002622,7.9985349999624304,None,,,,,,,,,,,,,,,,,,,,,,,,,,,,,,,,,,,,,,,,,,,,,,,,,,,,,,,,,,,,,,,,2024-03-14_12h26.48.928,extinction,2022.2.4,59.88594123231274,
CS+,0,14.5,8,stimuli/rotated.png,10,1,extinction,,,,,,,,,0,9,9,9,,,,,,,,,,188.00665330002084,197.38689919997705,202.50040810002247,14.493755599949509,202.50041720003355,210.51565080002183,8.015218099986669,None,,,,,,,,,,,,,,,,,,,,,,,,,,,,,,,,,,,,,,,,,,,,,,,,,,,,,,,,,,,,,,,,2024-03-14_12h26.48.928,extinction,2022.2.4,59.88594123231274,
CS-,0,9,8,stimuli/aligned.png,11,1,extinction,,,,,,,,,0,10,10,10,,,,,,,,,,210.51597210002365,219.896225399978,219.5160118000349,9.000040300015826,219.5160211000475,227.51453000004403,7.998507799988147,None,,,,,,,,,,,,,,,,,,,,,,,,,,,,,,,,,,,,,,,,,,,,,,,,,,,,,,,,,,,,,,,,2024-03-14_12h26.48.928,extinction,2022.2.4,59.88594123231274,
CS-,0,9.5,8,stimuli/aligned.png,12,1,extinction,,,,,,,,,0,11,11,11,,,,,,,,,,227.51485080004204,236.89510530000553,237.01582150004106,9.500971800007392,237.01583080005366,245.0310790000367,8.01523309998447,None,,,,,,,,,,,,,,,,,,,,,,,,,,,,,,,,,,,,,,,,,,,,,,,,,,,,,,,,,,,,,,,,2024-03-14_12h26.48.928,extinction,2022.2.4,59.88594123231274,
CS+,0,12,8,stimuli/rotated.png,13,1,extinction,,,,,,,,,0,12,12,12,,,,,,,,,,245.0313812000095,254.4116350999684,257.00371290004114,11.972335099999327,257.0037252000184,265.0022633000044,7.998521500034258,None,,,,,,,,,,,,,,,,,,,,,,,,,,,,,,,,,,,,,,,,,,,,,,,,,,,,,,,,,,,,,,,,2024-03-14_12h26.48.928,extinction,2022.2.4,59.88594123231274,
CS-,0,11,8,stimuli/aligned.png,14,1,extinction,,,,,,,,,0,13,13,13,,,,,,,,,,265.0025653000339,274.38282070000423,276.0063999000122,11.00383470003726,276.0064224000089,284.00492630002555,7.998489100020379,None,,,,,,,,,,,,,,,,,,,,,,,,,,,,,,,,,,,,,,,,,,,,,,,,,,,,,,,,,,,,,,,,2024-03-14_12h26.48.928,extinction,2022.2.4,59.88594123231274,
CS+,0,12.5,8,stimuli/rotated.png,15,1,extinction,,,,,,,,,0,14,14,14,,,,,,,,,,284.0052690000157,293.38550079998095,296.511911300011,12.506643000000622,296.51192100002663,304.5104862000444,7.998550200019963,None,,,,,,,,,,,,,,,,,,,,,,,,,,,,,,,,,,,,,,,,,,,,,,,,,,,,,,,,,,,,,,,,2024-03-14_12h26.48.928,extinction,2022.2.4,59.88594123231274,
CS-,0,13,8,stimuli/aligned.png,16,1,extinction,,,,,,,,,0,15,15,15,,,,,,,,,,304.5108031000127,313.89103960001376,317.5016875000438,12.99088599998504,317.501697300002,325.5169267000165,8.015214499959257,None,,,,,,,,,,,,,,,,,,,,,,,,,,,,,,,,,,,,,,,,,,,,,,,,,,,,,,,,,,,,,,,,2024-03-14_12h26.48.928,extinction,2022.2.4,59.88594123231274,
CS+,0,15,8,stimuli/rotated.png,17,1,extinction,,,,,,,,,0,16,16,16,,,,,,,,,,325.5172516000457,334.8975107999868,340.5119669000269,14.99471659999108,340.51197610003874,348.5105077000335,7.998518000007607,None,,,,,,,,,,,,,,,,,,,,,,,,,,,,,,,,,,,,,,,,,,,,,,,,,,,,,,,,,,,,,,,,2024-03-14_12h26.48.928,extinction,2022.2.4,59.88594123231274,
CS-,0,10.5,8,stimuli/aligned.png,18,1,extinction,,,,,,,,,0,17,17,17,,,,,,,,,,348.51081170002,357.891082999995,359.0136993000051,10.502889099996537,359.01370870001847,367.0122437000391,7.998520600027405,None,,,,,,,,,,,,,,,,,,,,,,,,,,,,,,,,,,,,,,,,,,,,,,,,,,,,,,,,,,,,,,,,2024-03-14_12h26.48.928,extinction,2022.2.4,59.88594123231274,
CS+,0,9.5,8,stimuli/rotated.png,19,1,extinction,,,,,,,,,0,18,18,18,,,,,,,,,,367.01256160001503,376.39280949998647,376.51352770003723,9.500967299973127,376.5135381,384.51209250005195,7.998548700008541,None,,,,,,,,,,,,,,,,,,,,,,,,,,,,,,,,,,,,,,,,,,,,,,,,,,,,,,,,,,,,,,,,2024-03-14_12h26.48.928,extinction,2022.2.4,59.88594123231274,
CS+,0,9,8,stimuli/rotated.png,20,1,extinction,,,,,,,,,0,19,19,19,,,,,,,,,,384.5124225000036,393.89264340000227,393.51241200004006,8.99999049998587,393.5124209000496,401.5109550000052,7.9985342000145465,None,,,,,,,,,,,,,,,,,,,,,,,,,,,,,,,,,,,,,,,,,,,,,,,,,,,,,,,,,,,,,,,,2024-03-14_12h26.48.928,extinction,2022.2.4,59.88594123231274,
CS-,0,14,8,stimuli/aligned.png,21,2,extinction,,,,,,,,,0,20,20,20,,,,,,,,,,401.51134320005076,410.891533099988,415.5040902000037,13.992748000018764,415.50409960001707,423.5193240000517,8.015209800039884,None,,,,,,,,,,,,,,,,,,,,,,,,,,,,,,,,,,,,,,,,,,,,,,,,,,,,,,,,,,,,,,,,2024-03-14_12h26.48.928,extinction,2022.2.4,59.88594123231274,
CS-,0,14.5,8,stimuli/aligned.png,22,2,extinction,,,,,,,,,0,21,21,21,,,,,,,,,,423.5196547000087,432.89990720001515,438.0134106000187,14.49375709996093,438.0134201000328,446.01195170002757,7.998530799988657,None,,,,,,,,,,,,,,,,,,,,,,,,,,,,,,,,,,,,,,,,,,,,,,,,,,,,,,,,,,,,,,,,2024-03-14_12h26.48.928,extinction,2022.2.4,59.88594123231274,
CS+,0,13.5,8,stimuli/rotated.png,23,2,extinction,,,,,,,,,0,22,22,22,,,,,,,,,,446.01227260002634,455.3925303000142,459.50414279999677,13.491870800033212,459.5041518000071,467.5026872000308,7.998521199973766,None,,,,,,,,,,,,,,,,,,,,,,,,,,,,,,,,,,,,,,,,,,,,,,,,,,,,,,,,,,,,,,,,2024-03-14_12h26.48.928,extinction,2022.2.4,59.88594123231274,
CS-,0,12,8,stimuli/aligned.png,24,2,extinction,,,,,,,,,0,23,23,23,,,,,,,,,,467.50299900001846,476.8832584999618,479.50872179999715,12.005723599984776,479.508731000009,487.50725980004063,7.9985281999688596,None,,,,,,,,,,,,,,,,,,,,,,,,,,,,,,,,,,,,,,,,,,,,,,,,,,,,,,,,,,,,,,,,2024-03-14_12h26.48.928,extinction,2022.2.4,59.88594123231274,
CS-,0,10,8,stimuli/aligned.png,25,2,extinction,,,,,,,,,0,24,24,24,,,,,,,,,,487.50758210005006,496.88783789996523,497.5094984000316,10.001916799985338,497.50950760004343,505.5080348000047,7.998512700025458,None,,,,,,,,,,,,,,,,,,,,,,,,,,,,,,,,,,,,,,,,,,,,,,,,,,,,,,,,,,,,,,,,2024-03-14_12h26.48.928,extinction,2022.2.4,59.88594123231274,
CS+,0,11.5,8,stimuli/rotated.png,26,2,extinction,,,,,,,,,0,25,25,25,,,,,,,,,,505.50834560004296,514.8886216999963,517.0131295000319,11.504784899996594,517.013138600043,525.0116885000025,7.998536100029014,None,,,,,,,,,,,,,,,,,,,,,,,,,,,,,,,,,,,,,,,,,,,,,,,,,,,,,,,,,,,,,,,,2024-03-14_12h26.48.928,extinction,2022.2.4,59.88594123231274,
CS-,0,9.5,8,stimuli/aligned.png,27,2,extinction,,,,,,,,,0,26,26,26,,,,,,,,,,525.0119920000434,534.3922617000062,534.5129536000313,9.500962499994785,534.5129625000409,542.5115037000505,7.998526600014884,None,,,,,,,,,,,,,,,,,,,,,,,,,,,,,,,,,,,,,,,,,,,,,,,,,,,,,,,,,,,,,,,,2024-03-14_12h26.48.928,extinction,2022.2.4,59.88594123231274,
CS+,0,12,8,stimuli/rotated.png,28,2,extinction,,,,,,,,,0,27,27,27,,,,,,,,,,542.5118030000012,551.8920812999713,554.5008399000508,11.989037899998948,554.5008489000029,562.5160828000517,8.015219799999613,None,,,,,,,,,,,,,,,,,,,,,,,,,,,,,,,,,,,,,,,,,,,,,,,,,,,,,,,,,,,,,,,,2024-03-14_12h26.48.928,extinction,2022.2.4,59.88594123231274,
CS+,0,10,8,stimuli/rotated.png,29,2,extinction,,,,,,,,,0,28,28,28,,,,,,,,,,562.5163839000161,571.8966599999694,572.5016240000259,9.985240999958478,572.5016328000347,580.5001740000444,7.998526800016407,None,,,,,,,,,,,,,,,,,,,,,,,,,,,,,,,,,,,,,,,,,,,,,,,,,,,,,,,,,,,,,,,,2024-03-14_12h26.48.928,extinction,2022.2.4,59.88594123231274,
CS-,0,9,8,stimuli/aligned.png,30,2,extinction,,,,,,,,,0,29,29,29,,,,,,,,,,580.5005040000542,589.8807412000024,589.5005077000242,9.000004799978342,589.5005172000383,597.5157446000376,8.015227600000799,None,,,,,,,,,,,,,,,,,,,,,,,,,,,,,,,,,,,,,,,,,,,,,,,,,,,,,,,,,,,,,,,,2024-03-14_12h26.48.928,extinction,2022.2.4,59.88594123231274,
CS+,0,13.5,8,stimuli/rotated.png,31,2,extinction,,,,,,,,,0,30,30,30,,,,,,,,,,597.5160825000494,606.8963223999599,611.0079325000406,13.491850899998099,611.0079414000502,619.006477100018,7.998520599969197,None,,,,,,,,,,,,,,,,,,,,,,,,,,,,,,,,,,,,,,,,,,,,,,,,,,,,,,,,,,,,,,,,2024-03-14_12h26.48.928,extinction,2022.2.4,59.88594123231274,
CS+,0,14,8,stimuli/rotated.png,32,2,extinction,,,,,,,,,0,31,31,31,,,,,,,,,,619.0067799000535,628.387052599981,633.0163092000294,14.009530399984214,633.0163186000427,641.0148568000295,7.99852289998671,None,,,,,,,,,,,,,,,,,,,,,,,,,,,,,,,,,,,,,,,,,,,,,,,,,,,,,,,,,,,,,,,,2024-03-14_12h26.48.928,extinction,2022.2.4,59.88594123231274,
CS-,0,11,8,stimuli/aligned.png,33,2,extinction,,,,,,,,,0,32,32,32,,,,,,,,,,641.0151383000193,650.3954285999644,652.00229090004,10.987153599970043,652.0022999000503,660.0175213000039,8.015206600015517,None,,,,,,,,,,,,,,,,,,,,,,,,,,,,,,,,,,,,,,,,,,,,,,,,,,,,,,,,,,,,,,,,2024-03-14_12h26.48.928,extinction,2022.2.4,59.88594123231274,
CS-,0,15,8,stimuli/aligned.png,34,2,extinction,,,,,,,,,0,33,33,33,,,,,,,,,,660.0178566999966,669.3981098000077,675.0125653000432,14.994709299993701,675.0125745999976,683.0277978000231,8.015207699965686,None,,,,,,,,,,,,,,,,,,,,,,,,,,,,,,,,,,,,,,,,,,,,,,,,,,,,,,,,,,,,,,,,2024-03-14_12h26.48.928,extinction,2022.2.4,59.88594123231274,
CS+,0,11.5,8,stimuli/rotated.png,35,2,extinction,,,,,,,,,0,34,34,34,,,,,,,,,,683.0281268000253,692.4083872999763,694.5161759000039,11.48804960004054,694.516185000015,702.5147408000194,7.998541500011925,None,,,,,,,,,,,,,,,,,,,,,,,,,,,,,,,,,,,,,,,,,,,,,,,,,,,,,,,,,,,,,,,,2024-03-14_12h26.48.928,extinction,2022.2.4,59.88594123231274,
CS-,0,12.5,8,stimuli/aligned.png,36,2,extinction,,,,,,,,,0,35,35,35,,,,,,,,,,702.5150500000454,711.8953145999694,715.005021500052,12.489972200011835,715.0050304000033,723.0035593000357,7.99851339997258,None,,,,,,,,,,,,,,,,,,,,,,,,,,,,,,,,,,,,,,,,,,,,,,,,,,,,,,,,,,,,,,,,2024-03-14_12h26.48.928,extinction,2022.2.4,59.88594123231274,
CS+,0,10.5,8,stimuli/rotated.png,37,2,extinction,,,,,,,,,0,36,36,36,,,,,,,,,,723.0038595000515,732.3841390999733,733.5067555000423,10.502896999998484,733.5067647000542,741.5052949000383,7.998515399987809,None,,,,,,,,,,,,,,,,,,,,,,,,,,,,,,,,,,,,,,,,,,,,,,,,,,,,,,,,,,,,,,,,2024-03-14_12h26.48.928,extinction,2022.2.4,59.88594123231274,
CS+,0,14.5,8,stimuli/rotated.png,38,2,extinction,,,,,,,,,0,37,37,37,,,,,,,,,,741.5056007000385,750.8858731999644,756.0160800000303,14.510479699994903,756.0160892000422,764.01462490001,7.9985217999783345,None,,,,,,,,,,,,,,,,,,,,,,,,,,,,,,,,,,,,,,,,,,,,,,,,,,,,,,,,,,,,,,,,2024-03-14_12h26.48.928,extinction,2022.2.4,59.88594123231274,
CS-,0,13,8,stimuli/aligned.png,39,2,extinction,,,,,,,,,0,38,38,38,,,,,,,,,,764.0149431000464,773.3951944999862,777.0058633000008,12.990921500022523,777.005873200018,785.0043966000085,7.998521899979096,None,,,,,,,,,,,,,,,,,,,,,,,,,,,,,,,,,,,,,,,,,,,,,,,,,,,,,,,,,,,,,,,,2024-03-14_12h26.48.928,extinction,2022.2.4,59.88594123231274,
CS+,0,14,8,stimuli/rotated.png,40,2,extinction,,,,,,,,,0,39,39,39,,,,,,,,,,785.0047246000031,794.3849774000118,799.0142345000058,14.009510800009593,799.0142445000238,807.0127789000398,7.99853169999551,None,,,,,,,,,,,,,,,,,,,,,,,,,,,,,,,,,,,,,,,,,,,,,,,,,,,,,,,,,,,,,,,,2024-03-14_12h26.48.928,extinction,2022.2.4,59.88594123231274,
,,,,,,,,,,,,,,,,,,,,,,,,,,,,,,,,,,,,,816.3933930000057,831.3884413999622,837.6669950999785,0,Please answer the following question using the mouse:,heading,None,None,,,,,,,,,,,,,,,,,,,,,,,,,,,,,,,,,,,,,,,,,,,,,,,,,,,,,,,,2024-03-14_12h26.48.928,extinction,2022.2.4,59.88594123231274,
,,,,,,,,,,,,,,,,,,,,,,,,,,,,,,,,,,,,,,,,1,"Did you receive electrical stimulations in the course of the last phase of the experiment?
",choice,None,None,0.0,6.251221699989401,,,,,,,,,,,,,,,,,,,,,,,,,,,,,,,,,,,,,,,,,,,,,,,,,,,,,,2024-03-14_12h26.48.928,extinction,2022.2.4,59.88594123231274,
,,,,,,,,,,,,,,,,,,,,,,,,,,,,,,,,,,,,,,,,,,,,,,,1,[1.9206197999883443],[1.9206223999499343],839.6040094000055,890.1998724999721,0,Please answer the following questions using the keyboard and mouse:,heading,None,None,,,,,,,,,,,,,,,,,,,,,,,,,,,,,,,,,,,,,,,,,,,,2024-03-14_12h26.48.928,extinction,2022.2.4,59.88594123231274,
,,,,,,,,,,,,,,,,,,,,,,,,,,,,,,,,,,,,,,,,,,,,,,,,,,,,1,"Please rate the last electrical stimulation you received during the last phase of the experiment. If you did not receive any electrical stimulations, select "none" 


",radio,None,None,0.0,9.915913000004366,,,,,,,,,,,,,,,,,,,,,,,,,,,,,,,,,,,,,,,,,,2024-03-14_12h26.48.928,extinction,2022.2.4,59.88594123231274,
,,,,,,,,,,,,,,,,,,,,,,,,,,,,,,,,,,,,,,,,,,,,,,,,,,,,2,"Please try to estimate, as accurately as possible, how many electrical stimulations you received in the last phase of the experiment (numbers only)",free text,None,None,  0,None,,,,,,,,,,,,,,,,,,,,,,,,,,,,,,,,,,,,,,,,,,2024-03-14_12h26.48.928,extinction,2022.2.4,59.88594123231274,
,,,,,,,,,,,,,,,,,,,,,,,,,,,,,,,,,,,,,,,,,,,,,,,,,,,,3,"In the first phase of the experiment, did you notice any relationship between the electrical stimulations and the geometric figures?",choice,None,None,1.0,50.52842020004755,,,,,,,,,,,,,,,,,,,,,,,,,,,,,,,,,,,,,,,,,,2024-03-14_12h26.48.928,extinction,2022.2.4,59.88594123231274,
,,,,,,,,,,,,,,,,,,,,0,0,0,0,,,,,,,,,,,,,,,,,,,,,,,,,,,,,,,,,,,,1,[1.6534437999944203],[1.653446200012695],891.8196345999604,906.1300796999712,0,Please answer the following question using the keyboard:,heading,None,None,,,,,,,,,,,,,,,,,,,,,,,,,,,,,,,,2024-03-14_12h26.48.928,extinction,2022.2.4,59.88594123231274,
,,,,,,,,,,,,,,,,,,,,0,0,0,0,,,,,,,,,,,,,,,,,,,,,,,,,,,,,,,,,,,,,,,,,1,You answered “Yes” to “did you notice any relationship between the electrical stimulations and the geometric figures”. Please describe the relationship in your own words (can use all keys to write response). ,free text,None,None,THERE WERE NO ELEKTRICAL STIMULATIONS BY THE SQUARES,None,,,,,,,,,,,,,,,,,,,,,,,,,,,,,,2024-03-14_12h26.48.928,extinction,2022.2.4,59.88594123231274,
,,,,,,,,,,,,,,,,,,,,0,0,0,0,,,,,,,,,,,,,,,,,,,,,,,,,,,,,,,,,,,,,,,,,,,,,,,,1,[35.50067719997605],[35.500679499993566],,,,,,,,,,,,,,,,,,,,,,,,,,,2024-03-14_12h26.48.928,extinction,2022.2.4,59.88594123231274,
,,,,,,,,,,,,,,,,,,,,,,,,,,,,,,,,,,,,,,,,,,,,,,,,,,,,,,,,,,,,,,,,,,,,,,,,,,941.6808032999979,1030.1484616000089,0,Please answer the following questions using the keyboard and mouse:,heading,None,None,,,,,,,,,,,,,,,,,,,,2024-03-14_12h26.48.928,extinction,2022.2.4,59.88594123231274,
,,,,,,,,,,,,,,,,,,,,,,,,,,,,,,,,,,,,,,,,,,,,,,,,,,,,,,,,,,,,,,,,,,,,,,,,,,,,1,"During the first phase, the electrical stimulations were preceded by the presentation of a diamond:",choice,None,None,2.0,34.32464440003969,,,,,,,,,,,,,,,,,,2024-03-14_12h26.48.928,extinction,2022.2.4,59.88594123231274,
,,,,,,,,,,,,,,,,,,,,,,,,,,,,,,,,,,,,,,,,,,,,,,,,,,,,,,,,,,,,,,,,,,,,,,,,,,,,2,"During the first phase, the diamond was followed by an electrical stimulation in approximately what percentage (0-100%) of all cases? (numbers only)",free text,None,None,70,None,,,,,,,,,,,,,,,,,,2024-03-14_12h26.48.928,extinction,2022.2.4,59.88594123231274,
,,,,,,,,,,,,,,,,,,,,,,,,,,,,,,,,,,,,,,,,,,,,,,,,,,,,,,,,,,,,,,,,,,,,,,,,,,,,3,"During the first phase, the electrical stimulations were preceded by the presentation of a square: 

",choice,None,None,1.0,65.24752570001874,,,,,,,,,,,,,,,,,,2024-03-14_12h26.48.928,extinction,2022.2.4,59.88594123231274,
,,,,,,,,,,,,,,,,,,,,,,,,,,,,,,,,,,,,,,,,,,,,,,,,,,,,,,,,,,,,,,,,,,,,,,,,,,,,4,"During the first phase, the square was followed by an electrical stimulation in approximately what percentage (0-100%) of all cases? (numbers only)",free text,None,None,0,None,,,,,,,,,,,,,,,,,,2024-03-14_12h26.48.928,extinction,2022.2.4,59.88594123231274,
,,,,,,,,,,,,,,,,,,,,,,,,,,,,,,,,,,,,,,,,,,,,,,,,,,,,,,,,,,,,,,,,,,,,,,,,,,,,5,"If you had to choose: During the first phase, after which of the geometric figures did the electrical stimulation never take place? (choose one) 

",choice,None,None,0.0,31.59214109997265,,,,,,,,,,,,,,,,,,2024-03-14_12h26.48.928,extinction,2022.2.4,59.88594123231274,
CS-,,,,stimuli/aligned.png,1,,,square,assets/valence_scale_clean.png,valence,← FEELING? →,Please indicate how you feel right now when you are looking at the square:,very uncomfortable,None,very comfortable,,,,,,,,,0,0,0,0,,,,,,,,,,,,,,,,,,,,,,,,,,,,,,,,,,,,,,,,,,,,,,,,,,,,,,,,1,[5.510490200016648],[5.51050520001445],1035.6923102000146,1035.6923102000146,1035.6923102000146,1035.6923102000146,1035.6923102000146,1035.6923102000146,1035.6923102000146,1035.6923102000146,7.0,3.7079062000266276,1,[6.734792899980675],[6.73479529999895],,2024-03-14_12h26.48.928,extinction,2022.2.4,59.88594123231274,
CS-,,,,stimuli/aligned.png,2,,,square,assets/arousal_scale_clean.png,arousal,← AROUSAL? →,Please indicate how you feel right now when you are looking at the square:,calm and relaxed,None,very excited,,,,,,,,,0,1,1,1,,,,,,,,,,,,,,,,,,,,,,,,,,,,,,,,,,,,,,,,,,,,,,,,,,,,,,,,,,,1042.455116099969,1042.455116099969,1042.455116099969,1042.455116099969,1042.455116099969,1042.455116099969,1042.455116099969,1042.455116099969,1.0,3.5319794999668375,2,"[6.734792899980675, 5.364516799978446]","[0.053660099976696074, 5.3645192999974824]",,2024-03-14_12h26.48.928,extinction,2022.2.4,59.88594123231274,
CS-,,,,stimuli/aligned.png,3,,,square,None,anxiety,← ANXIETY? →,Please indicate how you feel right now when you are looking at the square:,not anxious at all,None,very anxious,,,,,,,,,0,2,2,2,,,,,,,,,,,,,,,,,,,,,,,,,,,,,,,,,,,,,,,,,,,,,,,,,,,,,,,,,,,1047.8319549000007,1047.8319549000007,1047.8319549000007,1047.8319549000007,1047.8319549000007,1047.8319549000007,1047.8319549000007,1047.8319549000007,0.0,2.693985700025223,3,"[6.734792899980675, 5.364516799978446, 3.456517700047698]","[0.053660099976696074, 0.4981858000392094, 3.4565200000070035]",,2024-03-14_12h26.48.928,extinction,2022.2.4,59.88594123231274,
CS-,,,,stimuli/aligned.png,4,,,square,None,us_expectancy,← EXPECTATION? →,Please indicate how you feel right now when you are looking at the square:,"sure that I would not receive 
electrical stimulation",unsure,"sure that I would receive 
 electrical stimulation",,,,,,,,,0,3,3,3,,,,,,,,,,,,,,,,,,,,,,,,,,,,,,,,,,,,,,,,,,,,,,,,,,,,,,,,,,,1051.305225899967,1051.305225899967,1051.305225899967,1051.305225899967,1051.305225899967,1051.305225899967,1051.305225899967,1051.305225899967,1.0,8.15487079997547,4,"[6.734792899980675, 5.364516799978446, 3.456517700047698, 9.165794799977448]","[0.053660099976696074, 0.4981858000392094, 0.08122289995662868, 9.165797299996484]",,2024-03-14_12h26.48.928,extinction,2022.2.4,59.88594123231274,
CS+,,,,stimuli/rotated.png,5,,,diamond,assets/valence_scale_clean.png,valence,← FEELING? →,Please indicate how you feel right now when you are looking at the diamond:,very uncomfortable,None,very comfortable,,,,,,,,,0,4,4,4,,,,,,,,,,,,,,,,,,,,,,,,,,,,,,,,,,,,,,,,,,,,,,,,,,,,,,,,,,,1060.5562960999669,1060.5562960999669,1060.5562960999669,1060.5562960999669,1060.5562960999669,1060.5562960999669,1060.5562960999669,1060.5562960999669,5.0,4.112778899958357,5,"[6.734792899980675, 5.364516799978446, 3.456517700047698, 9.165794799977448, 4.912989100033883]","[0.053660099976696074, 0.4981858000392094, 0.08122289995662868, 0.05034529999829829, 4.912991599994712]",,2024-03-14_12h26.48.928,extinction,2022.2.4,59.88594123231274,
CS+,,,,stimuli/rotated.png,6,,,diamond,assets/arousal_scale_clean.png,arousal,← AROUSAL? →,Please indicate how you feel right now when you are looking at the diamond:,calm and relaxed,None,very excited,,,,,,,,,0,5,5,5,,,,,,,,,,,,,,,,,,,,,,,,,,,,,,,,,,,,,,,,,,,,,,,,,,,,,,,,,,,1065.4987914999947,1065.4987914999947,1065.4987914999947,1065.4987914999947,1065.4987914999947,1065.4987914999947,1065.4987914999947,1065.4987914999947,6.0,1.7301701999967918,6,"[6.734792899980675, 5.364516799978446, 3.456517700047698, 9.165794799977448, 4.912989100033883, 4.041462399996817]","[0.053660099976696074, 0.4981858000392094, 0.08122289995662868, 0.05034529999829829, 0.06793489999836311, 4.041465200018138]",,2024-03-14_12h26.48.928,extinction,2022.2.4,59.88594123231274,
CS+,,,,stimuli/rotated.png,7,,,diamond,None,anxiety,← ANXIETY? →,Please indicate how you feel right now when you are looking at the diamond:,not anxious at all,None,very anxious,,,,,,,,,0,6,6,6,,,,,,,,,,,,,,,,,,,,,,,,,,,,,,,,,,,,,,,,,,,,,,,,,,,,,,,,,,,1069.5731626999914,1069.5731626999914,1069.5731626999914,1069.5731626999914,1069.5731626999914,1069.5731626999914,1069.5731626999914,1069.5731626999914,5.0,4.6745307999663055,7,"[6.734792899980675, 5.364516799978446, 3.456517700047698, 9.165794799977448, 4.912989100033883, 4.041462399996817, 6.359454300021753]","[0.053660099976696074, 0.4981858000392094, 0.08122289995662868, 0.05034529999829829, 0.06793489999836311, 0.07856799999717623, 6.359457099984866]",,2024-03-14_12h26.48.928,extinction,2022.2.4,59.88594123231274,
CS+,,,,stimuli/rotated.png,8,,,diamond,None,us_expectancy,← EXPECTATION? →,Please indicate how you feel right now when you are looking at the diamond:,"sure that I would not receive 
 electrical stimulation",unsure,"sure that I would receive 
 electrical stimulation",,,,,,,,,0,7,7,7,,,,,,,,,,,,,,,,,,,,,,,,,,,,,,,,,,,,,,,,,,,,,,,,,,,,,,,,,,,1075.9519407000043,1075.9519407000043,1075.9519407000043,1075.9519407000043,1075.9519407000043,1075.9519407000043,1075.9519407000043,1075.9519407000043,5.0,5.049463799980003,8,"[6.734792899980675, 5.364516799978446, 3.456517700047698, 9.165794799977448, 4.912989100033883, 4.041462399996817, 6.359454300021753, 6.10300920001464]","[0.053660099976696074, 0.4981858000392094, 0.08122289995662868, 0.05034529999829829, 0.06793489999836311, 0.07856799999717623, 0.09072330000344664, 6.103011399973184]",,2024-03-14_12h26.48.928,extinction,2022.2.4,59.88594123231274,
