trial_type,cs_img,cs_shape,rating_img,rating_type,rating_text,top_instructions_text,left_anchor_text,center_anchor_text,right_anchor_text,trial,n,rating_next_button.numClicks_mean,rating_next_button.numClicks_raw,rating_next_button.numClicks_std,rating_next_button.timesOff_raw,rating_next_button.timesOn_raw,rating_slider.response_mean,rating_slider.response_raw,rating_slider.response_std,rating_slider.rt_mean,rating_slider.rt_raw,rating_slider.rt_std,order
CS-,stimuli/aligned.png,square,assets/valence_scale_clean.png,valence,← FEELING? →,Please indicate how you feel right now when you are looking at the square:,very uncomfortable,None,very comfortable,1,1.0,1.0,1.0,0.0,0.053660099976696074,0.4981858000392094,0.08122289995662868,0.05034529999829829,0.06793489999836311,0.07856799999717623,0.09072330000344664,6.103011399973184,6.734792899980675,5.364516799978446,3.456517700047698,9.165794799977448,4.912989100033883,4.041462399996817,6.359454300021753,6.10300920001464,7.0,7.0,0.0,3.7079062461853027,3.7079062461853027,0.0,0.0
CS-,stimuli/aligned.png,square,assets/arousal_scale_clean.png,arousal,← AROUSAL? →,Please indicate how you feel right now when you are looking at the square:,calm and relaxed,None,very excited,2,1.0,2.0,2.0,0.0,0.053660099976696074,0.4981858000392094,0.08122289995662868,0.05034529999829829,0.06793489999836311,0.07856799999717623,0.09072330000344664,6.103011399973184,6.734792899980675,5.364516799978446,3.456517700047698,9.165794799977448,4.912989100033883,4.041462399996817,6.359454300021753,6.10300920001464,1.0,1.0,0.0,3.531979560852051,3.531979560852051,0.0,1.0
CS-,stimuli/aligned.png,square,None,anxiety,← ANXIETY? →,Please indicate how you feel right now when you are looking at the square:,not anxious at all,None,very anxious,3,1.0,3.0,3.0,0.0,0.053660099976696074,0.4981858000392094,0.08122289995662868,0.05034529999829829,0.06793489999836311,0.07856799999717623,0.09072330000344664,6.103011399973184,6.734792899980675,5.364516799978446,3.456517700047698,9.165794799977448,4.912989100033883,4.041462399996817,6.359454300021753,6.10300920001464,0.0,0.0,0.0,2.6939857006073,2.6939857006073,0.0,2.0
CS-,stimuli/aligned.png,square,None,us_expectancy,← EXPECTATION? →,Please indicate how you feel right now when you are looking at the square:,sure that I would not receive 
electrical stimulation,unsure,sure that I would receive 
 electrical stimulation,4,1.0,4.0,4.0,0.0,0.053660099976696074,0.4981858000392094,0.08122289995662868,0.05034529999829829,0.06793489999836311,0.07856799999717623,0.09072330000344664,6.103011399973184,6.734792899980675,5.364516799978446,3.456517700047698,9.165794799977448,4.912989100033883,4.041462399996817,6.359454300021753,6.10300920001464,1.0,1.0,0.0,8.154870986938477,8.154870986938477,0.0,3.0
CS+,stimuli/rotated.png,diamond,assets/valence_scale_clean.png,valence,← FEELING? →,Please indicate how you feel right now when you are looking at the diamond:,very uncomfortable,None,very comfortable,5,1.0,5.0,5.0,0.0,0.053660099976696074,0.4981858000392094,0.08122289995662868,0.05034529999829829,0.06793489999836311,0.07856799999717623,0.09072330000344664,6.103011399973184,6.734792899980675,5.364516799978446,3.456517700047698,9.165794799977448,4.912989100033883,4.041462399996817,6.359454300021753,6.10300920001464,5.0,5.0,0.0,4.112778663635254,4.112778663635254,0.0,4.0
CS+,stimuli/rotated.png,diamond,assets/arousal_scale_clean.png,arousal,← AROUSAL? →,Please indicate how you feel right now when you are looking at the diamond:,calm and relaxed,None,very excited,6,1.0,6.0,6.0,0.0,0.053660099976696074,0.4981858000392094,0.08122289995662868,0.05034529999829829,0.06793489999836311,0.07856799999717623,0.09072330000344664,6.103011399973184,6.734792899980675,5.364516799978446,3.456517700047698,9.165794799977448,4.912989100033883,4.041462399996817,6.359454300021753,6.10300920001464,6.0,6.0,0.0,1.7301702499389648,1.7301702499389648,0.0,5.0
CS+,stimuli/rotated.png,diamond,None,anxiety,← ANXIETY? →,Please indicate how you feel right now when you are looking at the diamond:,not anxious at all,None,very anxious,7,1.0,7.0,7.0,0.0,0.053660099976696074,0.4981858000392094,0.08122289995662868,0.05034529999829829,0.06793489999836311,0.07856799999717623,0.09072330000344664,6.103011399973184,6.734792899980675,5.364516799978446,3.456517700047698,9.165794799977448,4.912989100033883,4.041462399996817,6.359454300021753,6.10300920001464,5.0,5.0,0.0,4.674530982971191,4.674530982971191,0.0,6.0
CS+,stimuli/rotated.png,diamond,None,us_expectancy,← EXPECTATION? →,Please indicate how you feel right now when you are looking at the diamond:,sure that I would not receive 
 electrical stimulation,unsure,sure that I would receive 
 electrical stimulation,8,1.0,8.0,8.0,0.0,0.053660099976696074,0.4981858000392094,0.08122289995662868,0.05034529999829829,0.06793489999836311,0.07856799999717623,0.09072330000344664,6.103011399973184,6.734792899980675,5.364516799978446,3.456517700047698,9.165794799977448,4.912989100033883,4.041462399996817,6.359454300021753,6.10300920001464,5.0,5.0,0.0,5.049463748931885,5.049463748931885,0.0,7.0

extraInfo
,
date,2024-03-14_12h26.48.928
expName,extinction
psychopyVersion,2022.2.4
frameRate,59.88594123231274
